wavelength,relativeIntensity
 380,300
 385,286
 390,268
 395,244
 400,304
 405,581
 410,225
 415,155
 420,152
 425,170
 430,295
 435,1417
 440,607
 445,343
 450,386
 455,430
 460,469
 465,502
 470,531
 475,552
 480,567
 485,572
 490,575
 495,561
 500,548
 505,527
 510,507
 515,482
 520,461
 525,438
 530,418
 535,404
 540,429
 545,1016
 550,581
 555,370
 560,368
 565,371
 570,377
 575,490
 580,525
 585,402
 590,404
 595,412
 600,418
 605,425
 610,428
 615,432
 620,433
 625,431
 630,427
 635,420
 640,410
 645,399
 650,385
 655,370
 660,352
 665,336
 670,317
 675,298
 680,277
 685,260
 690,242
 695,223
 700,202
 705,187
 710,167
 715,152
 720,136
 725,125
 730,113
 735,103
 740,93
 745,84
 750,75
 755,66
 760,58
 765,51
 770,46
 775,41
 780,37
